"STUDYID","DOMAIN","USUBJID","SUBJID","RFSTDTC","RFENDTC","RFXSTDTC","RFXENDTC","RFICDTC","RFPENDTC","DTHDTC","DTHFL","SITEID","BRTHDTC","AGE","AGEU","SEX","RACE","ETHNIC","ARMCD","ARM","ACTARMCD","ACTARM","COUNTRY","DMDTC","DMDY","ARMNRS","ACTARMUD"
"CDISCPILOT01","DM","01-701-1015","1015","2014-01-02","2014-07-02","2014-01-02","2014-07-02",NA,"2014-07-02T11:45",NA,NA,"701","2013-01-02",1,"YEARS","F","WHITE","HISPANIC OR LATINO","Pbo","Placebo","Pbo","Placebo","USA","2013-12-26",-7,NA,NA
"CDISCPILOT01","DM","01-701-1023","1023","2012-08-05","2012-09-02","2012-08-05","2012-09-01",NA,"2013-02-18",NA,NA,"701","2010-08-05",2,"YEARS","M","WHITE","HISPANIC OR LATINO","Pbo","Placebo","Pbo","Placebo","USA","2012-07-22",-14,NA,NA
"CDISCPILOT01","DM","01-701-1028","1028","2013-07-19","2014-01-14","2013-07-19","2014-01-14",NA,"2014-01-14T11:10",NA,NA,"701","2010-07-19",3,"YEARS","M","WHITE","NOT HISPANIC OR LATINO","Xan_Hi","Xanomeline High Dose","Xan_Hi","Xanomeline High Dose","USA","2013-07-11",-8,NA,NA
"CDISCPILOT01","DM","01-701-1033","1033","2014-03-18","2014-04-14","2014-03-18","2014-03-31",NA,"2014-09-15",NA,NA,"701","2014-01-01",0,"YEARS","M","WHITE","NOT HISPANIC OR LATINO","Xan_Lo","Xanomeline Low Dose","Xan_Lo","Xanomeline Low Dose","USA","2014-03-10",-8,NA,NA
"CDISCPILOT01","DM","01-701-1034","1034","2014-07-01","2014-12-30","2014-07-01","2014-12-30",NA,"2014-12-30T09:50",NA,NA,"701","2014-06-01",0,"YEARS","F","WHITE","NOT HISPANIC OR LATINO","Xan_Hi","Xanomeline High Dose","Xan_Hi","Xanomeline High Dose","USA","2014-06-24",-7,NA,NA
