"STUDYID","DOMAIN","USUBJID","RSSEQ","RSTESTCD","RSTEST","RSCAT","RSORRES","RSSTRESC","RSEVAL","VISITNUM","VISIT","RSDTC"
"CDISCPILOT01","RS","01-701-1015",3,"OVRLRESP","Overall Response","CA125","Non-Response/ Non-PD","SD","INVESTIGATOR",2,"WEEK 3","2014-01-23"
"CDISCPILOT01","RS","01-701-1015",6,"OVRLRESP","Overall Response","CA125","Not Evaluable","NE","INVESTIGATOR",3,"WEEK 6","2014-02"
"CDISCPILOT01","RS","01-701-1015",9,"OVRLRESP","Overall Response","CA125","Response But Not Within Normal Range","PR","INVESTIGATOR",4,"WEEK 9","2014-03-06"
"CDISCPILOT01","RS","01-701-1028",3,"OVRLRESP","Overall Response","CA125","Progressive Disease","PD","INVESTIGATOR",2,"WEEK 3","2013-08-09"
"CDISCPILOT01","RS","01-701-1028",6,"OVRLRESP","Overall Response","CA125","Progressive Disease","PD","INVESTIGATOR",3,"WEEK 6","2013-08-30"
"CDISCPILOT01","RS","01-701-1028",9,"OVRLRESP","Overall Response","CA125","Progressive Disease","PD","INVESTIGATOR",4,"WEEK 9","2013-09-30"
"CDISCPILOT01","RS","01-701-1034",3,"OVRLRESP","Overall Response","CA125","Response Within Normal Range","CR","INVESTIGATOR",2,"WEEK 3","2014-07-22"
"CDISCPILOT01","RS","01-701-1034",6,"OVRLRESP","Overall Response","CA125","Response Within Normal Range","CR","INVESTIGATOR",3,"WEEK 6","2014-08-20"
"CDISCPILOT01","RS","01-701-1097",3,"OVRLRESP","Overall Response","CA125","Non-Response/ Non-PD","SD","INVESTIGATOR",2,"WEEK 3","2014-01-22"
"CDISCPILOT01","RS","01-701-1115",3,"OVRLRESP","Overall Response","CA125","Response But Not Within Normal Range","PR","INVESTIGATOR",2,"WEEK 3","2012-12-21"
"CDISCPILOT01","RS","01-701-1115",6,"OVRLRESP","Overall Response","CA125","Response But Not Within Normal Range","PR","INVESTIGATOR",3,"WEEK 6","2013-01-11"
"CDISCPILOT01","RS","01-701-1115",9,"OVRLRESP","Overall Response","CA125","Response Within Normal Range","CR","INVESTIGATOR",4,"WEEK 9","2013-02-01"
"CDISCPILOT01","RS","01-701-1118",3,"OVRLRESP","Overall Response","CA125","Non-Response/ Non-PD","SD","INVESTIGATOR",2,"WEEK 3","2014-04-02"
"CDISCPILOT01","RS","01-701-1118",6,"OVRLRESP","Overall Response","CA125","Response Within Normal Range","CR","INVESTIGATOR",3,"WEEK 6","2014-04-23"
"CDISCPILOT01","RS","01-701-1118",9,"OVRLRESP","Overall Response","CA125","Not Evaluable","NE","INVESTIGATOR",4,"WEEK 9","2014-05-14"
"CDISCPILOT01","RS","01-701-1118",12,"OVRLRESP","Overall Response","CA125","Response Within Normal Range","CR","INVESTIGATOR",5,"WEEK 12","2014-06-04"
"CDISCPILOT01","RS","01-701-1130",3,"OVRLRESP","Overall Response","CA125","Non-Response/ Non-PD","SD","INVESTIGATOR",2,"WEEK 3","2014-03-08"
"CDISCPILOT01","RS","01-701-1130",6,"OVRLRESP","Overall Response","CA125","Progressive Disease","PD","INVESTIGATOR",3,"WEEK 6","2014-03-29"
"CDISCPILOT01","RS","01-701-1130",9,"OVRLRESP","Overall Response","CA125","Progressive Disease","PD","INVESTIGATOR",4,"WEEK 9","2014-04-19"
"CDISCPILOT01","RS","01-701-1133",3,"OVRLRESP","Overall Response","CA125","Response But Not Within Normal Range","PR","INVESTIGATOR",2,"WEEK 3","2012-11-18"
"CDISCPILOT01","RS","01-701-1133",6,"OVRLRESP","Overall Response","CA125","Progressive Disease","PD","INVESTIGATOR",3,"WEEK 6","2012-12-09"
"CDISCPILOT01","RS","01-701-1133",9,"OVRLRESP","Overall Response","CA125","Progressive Disease","PD","INVESTIGATOR",4,"WEEK 9","2012-12-30"
"CDISCPILOT01","RS","01-701-1015",12,"OVRLRESP","Overall Response","RECIST 1.1","SD","SD","INVESTIGATOR",2,"WEEK 3","2014-01-23"
"CDISCPILOT01","RS","01-701-1015",15,"OVRLRESP","Overall Response","RECIST 1.1","NE","NE","INVESTIGATOR",3,"WEEK 6","2014-02"
"CDISCPILOT01","RS","01-701-1015",18,"OVRLRESP","Overall Response","RECIST 1.1","PR","PR","INVESTIGATOR",4,"WEEK 9","2014-03-06"
"CDISCPILOT01","RS","01-701-1028",12,"OVRLRESP","Overall Response","RECIST 1.1","PR","PR","INVESTIGATOR",2,"WEEK 3","2013-08-09"
"CDISCPILOT01","RS","01-701-1028",15,"OVRLRESP","Overall Response","RECIST 1.1","PD","PD","INVESTIGATOR",3,"WEEK 6","2013-08-30"
"CDISCPILOT01","RS","01-701-1028",18,"OVRLRESP","Overall Response","RECIST 1.1","PD","PD","INVESTIGATOR",4,"WEEK 9","2013-09-30"
"CDISCPILOT01","RS","01-701-1034",12,"OVRLRESP","Overall Response","RECIST 1.1","CR","CR","INVESTIGATOR",2,"WEEK 3","2014-07-22"
"CDISCPILOT01","RS","01-701-1034",15,"OVRLRESP","Overall Response","RECIST 1.1","CR","CR","INVESTIGATOR",3,"WEEK 6","2014-08-20"
"CDISCPILOT01","RS","01-701-1097",12,"OVRLRESP","Overall Response","RECIST 1.1","SD","SD","INVESTIGATOR",2,"WEEK 3","2014-01-22"
"CDISCPILOT01","RS","01-701-1115",12,"OVRLRESP","Overall Response","RECIST 1.1","SD","SD","INVESTIGATOR",2,"WEEK 3","2012-12-21"
"CDISCPILOT01","RS","01-701-1115",15,"OVRLRESP","Overall Response","RECIST 1.1","PR","PR","INVESTIGATOR",3,"WEEK 6","2013-01-11"
"CDISCPILOT01","RS","01-701-1115",18,"OVRLRESP","Overall Response","RECIST 1.1","CR","CR","INVESTIGATOR",4,"WEEK 9","2013-02-01"
"CDISCPILOT01","RS","01-701-1118",12,"OVRLRESP","Overall Response","RECIST 1.1","SD","SD","INVESTIGATOR",2,"WEEK 3","2014-04-02"
"CDISCPILOT01","RS","01-701-1118",15,"OVRLRESP","Overall Response","RECIST 1.1","CR","CR","INVESTIGATOR",3,"WEEK 6","2014-04-23"
"CDISCPILOT01","RS","01-701-1118",18,"OVRLRESP","Overall Response","RECIST 1.1","NE","NE","INVESTIGATOR",4,"WEEK 9","2014-05-14"
"CDISCPILOT01","RS","01-701-1118",21,"OVRLRESP","Overall Response","RECIST 1.1","CR","CR","INVESTIGATOR",5,"WEEK 12","2014-06-04"
"CDISCPILOT01","RS","01-701-1130",12,"OVRLRESP","Overall Response","RECIST 1.1","SD","SD","INVESTIGATOR",2,"WEEK 3","2014-03-08"
"CDISCPILOT01","RS","01-701-1130",15,"OVRLRESP","Overall Response","RECIST 1.1","PD","PD","INVESTIGATOR",3,"WEEK 6","2014-03-29"
"CDISCPILOT01","RS","01-701-1130",18,"OVRLRESP","Overall Response","RECIST 1.1","PD","PD","INVESTIGATOR",4,"WEEK 9","2014-04-19"
"CDISCPILOT01","RS","01-701-1133",12,"OVRLRESP","Overall Response","RECIST 1.1","PR","PR","INVESTIGATOR",2,"WEEK 3","2012-11-18"
"CDISCPILOT01","RS","01-701-1133",15,"OVRLRESP","Overall Response","RECIST 1.1","PR","PR","INVESTIGATOR",3,"WEEK 6","2012-12-09"
"CDISCPILOT01","RS","01-701-1133",18,"OVRLRESP","Overall Response","RECIST 1.1","PR","PR","INVESTIGATOR",4,"WEEK 9","2012-12-30"
"CDISCPILOT01","RS","01-701-1015",21,"OVRLRESP","Overall Response","RECIST 1.1 - CA125","Stable Disease","SD","INVESTIGATOR",2,"WEEK 3","2014-01-23"
"CDISCPILOT01","RS","01-701-1015",24,"OVRLRESP","Overall Response","RECIST 1.1 - CA125","Not Evaluable","NE","INVESTIGATOR",3,"WEEK 6","2014-02"
"CDISCPILOT01","RS","01-701-1015",27,"OVRLRESP","Overall Response","RECIST 1.1 - CA125","Partial Response","PR","INVESTIGATOR",4,"WEEK 9","2014-03-06"
"CDISCPILOT01","RS","01-701-1028",21,"OVRLRESP","Overall Response","RECIST 1.1 - CA125","Progressive Disease","PD","INVESTIGATOR",2,"WEEK 3","2013-08-09"
"CDISCPILOT01","RS","01-701-1028",24,"OVRLRESP","Overall Response","RECIST 1.1 - CA125","Progressive Disease","PD","INVESTIGATOR",3,"WEEK 6","2013-08-30"
"CDISCPILOT01","RS","01-701-1028",27,"OVRLRESP","Overall Response","RECIST 1.1 - CA125","Progressive Disease","PD","INVESTIGATOR",4,"WEEK 9","2013-09-30"
"CDISCPILOT01","RS","01-701-1034",21,"OVRLRESP","Overall Response","RECIST 1.1 - CA125","Complete Response","CR","INVESTIGATOR",2,"WEEK 3","2014-07-22"
"CDISCPILOT01","RS","01-701-1034",24,"OVRLRESP","Overall Response","RECIST 1.1 - CA125","Complete Response","CR","INVESTIGATOR",3,"WEEK 6","2014-08-20"
"CDISCPILOT01","RS","01-701-1097",21,"OVRLRESP","Overall Response","RECIST 1.1 - CA125","Stable Disease","SD","INVESTIGATOR",2,"WEEK 3","2014-01-22"
"CDISCPILOT01","RS","01-701-1115",21,"OVRLRESP","Overall Response","RECIST 1.1 - CA125","Partial Response","PR","INVESTIGATOR",2,"WEEK 3","2012-12-21"
"CDISCPILOT01","RS","01-701-1115",24,"OVRLRESP","Overall Response","RECIST 1.1 - CA125","Partial Response","PR","INVESTIGATOR",3,"WEEK 6","2013-01-11"
"CDISCPILOT01","RS","01-701-1115",27,"OVRLRESP","Overall Response","RECIST 1.1 - CA125","Complete Response","CR","INVESTIGATOR",4,"WEEK 9","2013-02-01"
"CDISCPILOT01","RS","01-701-1118",21,"OVRLRESP","Overall Response","RECIST 1.1 - CA125","Stable Disease","SD","INVESTIGATOR",2,"WEEK 3","2014-04-02"
"CDISCPILOT01","RS","01-701-1118",24,"OVRLRESP","Overall Response","RECIST 1.1 - CA125","Complete Response","CR","INVESTIGATOR",3,"WEEK 6","2014-04-23"
"CDISCPILOT01","RS","01-701-1118",27,"OVRLRESP","Overall Response","RECIST 1.1 - CA125","Not Evaluable","NE","INVESTIGATOR",4,"WEEK 9","2014-05-14"
"CDISCPILOT01","RS","01-701-1118",30,"OVRLRESP","Overall Response","RECIST 1.1 - CA125","Complete Response","CR","INVESTIGATOR",5,"WEEK 12","2014-06-04"
"CDISCPILOT01","RS","01-701-1130",21,"OVRLRESP","Overall Response","RECIST 1.1 - CA125","Stable Disease","SD","INVESTIGATOR",2,"WEEK 3","2014-03-08"
"CDISCPILOT01","RS","01-701-1130",24,"OVRLRESP","Overall Response","RECIST 1.1 - CA125","Progressive Disease","PD","INVESTIGATOR",3,"WEEK 6","2014-03-29"
"CDISCPILOT01","RS","01-701-1130",27,"OVRLRESP","Overall Response","RECIST 1.1 - CA125","Progressive Disease","PD","INVESTIGATOR",4,"WEEK 9","2014-04-19"
"CDISCPILOT01","RS","01-701-1133",21,"OVRLRESP","Overall Response","RECIST 1.1 - CA125","Partial Response","PR","INVESTIGATOR",2,"WEEK 3","2012-11-18"
"CDISCPILOT01","RS","01-701-1133",24,"OVRLRESP","Overall Response","RECIST 1.1 - CA125","Progressive Disease","PD","INVESTIGATOR",3,"WEEK 6","2012-12-09"
"CDISCPILOT01","RS","01-701-1133",27,"OVRLRESP","Overall Response","RECIST 1.1 - CA125","Progressive Disease","PD","INVESTIGATOR",4,"WEEK 9","2012-12-30"
