"STUDYID","USUBJID","RDOMAIN","IDVAR","IDVARVAL","QNAM","QVAL","QLABEL","QORIG"
"ABC","ABC-1001","DM","","","RACIALD","OTHER","Racial Designation","CRF"
"ABC","ABC-1002","DM","","","RACIALD","OTHER","Racial Designation","CRF"
