"STUDYID","RDOMAIN","USUBJID","IDVAR","IDVARVAL","QNAM","QLABEL","QVAL","QORIG"
"CDISCPILOT01","DS","01-703-1175","DSSEQ","2","ENTCRIT","PROTOCOL ENTRY CRITERIA NOT MET","16","CRF"
"CDISCPILOT01","DS","01-705-1382","DSSEQ","2","ENTCRIT","PROTOCOL ENTRY CRITERIA NOT MET","25","CRF"
"CDISCPILOT01","DS","01-708-1372","DSSEQ","3","ENTCRIT","PROTOCOL ENTRY CRITERIA NOT MET","16","CRF"
