"STUDYID","USUBJID","RDOMAIN","IDVAR","IDVARVAL","QNAM","QVAL","QLABEL","QORIG"
"ABC","ABC-1001","CE","CESEQ","1","CEEVAL","STUDY SUBJECT","Evaluator","ASSIGNED"
"ABC","ABC-1001","CE","CESEQ","2","CEEVAL","STUDY SUBJECT","Evaluator","ASSIGNED"
"ABC","ABC-1002","CE","CESEQ","1","CEEVAL","STUDY SUBJECT","Evaluator","ASSIGNED"
"ABC","ABC-1002","CE","CESEQ","2","CEEVAL","STUDY SUBJECT","Evaluator","ASSIGNED"
