"STUDYID","DOMAIN","USUBJID","VSSEQ","VSLNKID","VSLNKGRP","VSTESTCD","VSTEST","VSCAT","VSSCAT","VSORRES","VSORRESU","VSSTRESC","VSSTRESN","VSSTRESU","VSEVAL","VSLOC","EPOCH","VSDTC","VSDY","VSTPT","VSTPTNUM","VSTPTREF"
"ABC","VS","ABC-1001",1,"VACCINATION 1-FEVER-DAY 1","VACCINATION 1-FEVER","TEMP","Temperature","REACTOGENICITY","SYSTEMIC","97.9","F","36.61",36.61,"C","STUDY SUBJECT",NA,"VACCINATION 1","2021-11-03T18:00:23",1,"DAY 1",1,"VACCINATION 1"
"ABC","VS","ABC-1001",2,"VACCINATION 1-FEVER-DAY 2","VACCINATION 1-FEVER","TEMP","Temperature","REACTOGENICITY","SYSTEMIC","99.1","F","37.28",37.28,"C","STUDY SUBJECT",NA,"VACCINATION 1","2021-11-04T18:01:09",2,"DAY 2",2,"VACCINATION 1"
"ABC","VS","ABC-1001",3,"VACCINATION 1-FEVER-DAY 3","VACCINATION 1-FEVER","TEMP","Temperature","REACTOGENICITY","SYSTEMIC","97.3","F","36.28",36.28,"C","STUDY SUBJECT",NA,"VACCINATION 1","2021-11-05T19:04:07",3,"DAY 3",3,"VACCINATION 1"
"ABC","VS","ABC-1001",4,"VACCINATION 1-FEVER-DAY 4","VACCINATION 1-FEVER","TEMP","Temperature","REACTOGENICITY","SYSTEMIC","98.3","F","36.83",36.83,"C","STUDY SUBJECT",NA,"VACCINATION 1","2021-11-06T18:00:33",4,"DAY 4",4,"VACCINATION 1"
"ABC","VS","ABC-1001",5,"VACCINATION 1-FEVER-DAY 5","VACCINATION 1-FEVER","TEMP","Temperature","REACTOGENICITY","SYSTEMIC","97.8","F","36.56",36.56,"C","STUDY SUBJECT",NA,"VACCINATION 1","2021-11-07T18:01:25",5,"DAY 5",5,"VACCINATION 1"
"ABC","VS","ABC-1001",6,"VACCINATION 1-FEVER-DAY 6","VACCINATION 1-FEVER","TEMP","Temperature","REACTOGENICITY","SYSTEMIC","99.1","F","37.28",37.28,"C","STUDY SUBJECT",NA,"VACCINATION 1","2021-11-08T18:00:26",6,"DAY 6",6,"VACCINATION 1"
"ABC","VS","ABC-1001",7,"VACCINATION 1-FEVER-DAY 7","VACCINATION 1-FEVER","TEMP","Temperature","REACTOGENICITY","SYSTEMIC","98.1","F","36.72",36.72,"C","STUDY SUBJECT",NA,"VACCINATION 1","2021-11-09T18:08:04",7,"DAY 7",7,"VACCINATION 1"
"ABC","VS","ABC-1001",8,"VACCINATION 2-FEVER-DAY 1","VACCINATION 2-FEVER","TEMP","Temperature","REACTOGENICITY","SYSTEMIC",NA,NA,NA,NA,NA,NA,NA,"VACCINATION 2","2021-12-30",58,"DAY 1",1,"VACCINATION 2"
"ABC","VS","ABC-1001",9,"VACCINATION 2-FEVER-DAY 2","VACCINATION 2-FEVER","TEMP","Temperature","REACTOGENICITY","SYSTEMIC",NA,NA,NA,NA,NA,NA,NA,"VACCINATION 2","2021-12-31",59,"DAY 2",2,"VACCINATION 2"
"ABC","VS","ABC-1001",10,"VACCINATION 2-FEVER-DAY 3","VACCINATION 2-FEVER","TEMP","Temperature","REACTOGENICITY","SYSTEMIC",NA,NA,NA,NA,NA,NA,NA,"VACCINATION 2","2022-01-01",60,"DAY 3",3,"VACCINATION 2"
"ABC","VS","ABC-1001",11,"VACCINATION 2-FEVER-DAY 4","VACCINATION 2-FEVER","TEMP","Temperature","REACTOGENICITY","SYSTEMIC",NA,NA,NA,NA,NA,NA,NA,"VACCINATION 2","2022-01-02",61,"DAY 4",4,"VACCINATION 2"
"ABC","VS","ABC-1001",12,"VACCINATION 2-FEVER-DAY 5","VACCINATION 2-FEVER","TEMP","Temperature","REACTOGENICITY","SYSTEMIC",NA,NA,NA,NA,NA,NA,NA,"VACCINATION 2","2022-01-03",62,"DAY 5",5,"VACCINATION 2"
"ABC","VS","ABC-1001",13,"VACCINATION 2-FEVER-DAY 6","VACCINATION 2-FEVER","TEMP","Temperature","REACTOGENICITY","SYSTEMIC",NA,NA,NA,NA,NA,NA,NA,"VACCINATION 2","2022-01-04",63,"DAY 6",6,"VACCINATION 2"
"ABC","VS","ABC-1001",14,"VACCINATION 2-FEVER-DAY 7","VACCINATION 2-FEVER","TEMP","Temperature","REACTOGENICITY","SYSTEMIC",NA,NA,NA,NA,NA,NA,NA,"VACCINATION 2","2022-01-05",64,"DAY 7",7,"VACCINATION 2"
"ABC","VS","ABC-1002",1,"VACCINATION 1-FEVER-DAY 1","VACCINATION 1-FEVER","TEMP","Temperature","REACTOGENICITY","SYSTEMIC","97.0","F","36.11",36.11,"C","STUDY SUBJECT",NA,"VACCINATION 1","2021-10-07T19:14:10",1,"DAY 1",1,"VACCINATION 1"
"ABC","VS","ABC-1002",2,"VACCINATION 1-FEVER-DAY 2","VACCINATION 1-FEVER","TEMP","Temperature","REACTOGENICITY","SYSTEMIC","98.1","F","36.72",36.72,"C","STUDY SUBJECT",NA,"VACCINATION 1","2021-10-08T18:13:47",2,"DAY 2",2,"VACCINATION 1"
"ABC","VS","ABC-1002",3,"VACCINATION 1-FEVER-DAY 3","VACCINATION 1-FEVER","TEMP","Temperature","REACTOGENICITY","SYSTEMIC","97.2","F","36.22",36.22,"C","STUDY SUBJECT",NA,"VACCINATION 1","2021-10-09T18:02:12",3,"DAY 3",3,"VACCINATION 1"
"ABC","VS","ABC-1002",4,"VACCINATION 1-FEVER-DAY 4","VACCINATION 1-FEVER","TEMP","Temperature","REACTOGENICITY","SYSTEMIC","97.1","F","36.17",36.17,"C","STUDY SUBJECT",NA,"VACCINATION 1","2021-10-10T18:03:17",4,"DAY 4",4,"VACCINATION 1"
"ABC","VS","ABC-1002",5,"VACCINATION 1-FEVER-DAY 5","VACCINATION 1-FEVER","TEMP","Temperature","REACTOGENICITY","SYSTEMIC","98.2","F","36.78",36.78,"C","STUDY SUBJECT",NA,"VACCINATION 1","2021-10-11T18:11:54",5,"DAY 5",5,"VACCINATION 1"
"ABC","VS","ABC-1002",6,"VACCINATION 1-FEVER-DAY 6","VACCINATION 1-FEVER","TEMP","Temperature","REACTOGENICITY","SYSTEMIC",NA,NA,NA,NA,NA,NA,NA,"VACCINATION 1","2021-10-12",6,"DAY 6",6,"VACCINATION 1"
"ABC","VS","ABC-1002",7,"VACCINATION 1-FEVER-DAY 7","VACCINATION 1-FEVER","TEMP","Temperature","REACTOGENICITY","SYSTEMIC","98.0","F","36.67",36.67,"C","STUDY SUBJECT",NA,"VACCINATION 1","2021-10-13T19:27:24",7,"DAY 7",7,"VACCINATION 1"
"ABC","VS","ABC-1002",8,"VACCINATION 2-FEVER-DAY 1","VACCINATION 2-FEVER","TEMP","Temperature","REACTOGENICITY","SYSTEMIC","97.4","F","36.33",36.33,"C","STUDY SUBJECT",NA,"VACCINATION 2","2021-12-16T18:01:47",71,"DAY 1",1,"VACCINATION 2"
"ABC","VS","ABC-1002",9,"VACCINATION 2-FEVER-DAY 2","VACCINATION 2-FEVER","TEMP","Temperature","REACTOGENICITY","SYSTEMIC","98.1","F","36.72",36.72,"C","STUDY SUBJECT",NA,"VACCINATION 2","2021-12-17T18:22:25",72,"DAY 2",2,"VACCINATION 2"
"ABC","VS","ABC-1002",10,"VACCINATION 2-FEVER-DAY 3","VACCINATION 2-FEVER","TEMP","Temperature","REACTOGENICITY","SYSTEMIC","98.5","F","36.94",36.94,"C","STUDY SUBJECT",NA,"VACCINATION 2","2021-12-18T18:34:53",73,"DAY 3",3,"VACCINATION 2"
"ABC","VS","ABC-1002",11,"VACCINATION 2-FEVER-DAY 4","VACCINATION 2-FEVER","TEMP","Temperature","REACTOGENICITY","SYSTEMIC","96.7","F","35.94",35.94,"C","STUDY SUBJECT",NA,"VACCINATION 2","2021-12-19T18:40:14",74,"DAY 4",4,"VACCINATION 2"
"ABC","VS","ABC-1002",12,"VACCINATION 2-FEVER-DAY 5","VACCINATION 2-FEVER","TEMP","Temperature","REACTOGENICITY","SYSTEMIC","98.7","F","37.06",37.06,"C","STUDY SUBJECT",NA,"VACCINATION 2","2021-12-20T18:33:47",75,"DAY 5",5,"VACCINATION 2"
"ABC","VS","ABC-1002",13,"VACCINATION 2-FEVER-DAY 6","VACCINATION 2-FEVER","TEMP","Temperature","REACTOGENICITY","SYSTEMIC","98.1","F","36.72",36.72,"C","STUDY SUBJECT",NA,"VACCINATION 2","2021-12-21T18:20:15",76,"DAY 6",6,"VACCINATION 2"
"ABC","VS","ABC-1002",14,"VACCINATION 2-FEVER-DAY 7","VACCINATION 2-FEVER","TEMP","Temperature","REACTOGENICITY","SYSTEMIC","97.8","F","36.56",36.56,"C","STUDY SUBJECT",NA,"VACCINATION 2","2021-12-22T18:23:21",77,"DAY 7",7,"VACCINATION 2"
